File: patterns/mosaic/xrd_pattern.csv
5 1.05757e-12
5.05251 1.61341e-12
5.10501 2.77495e-12
5.15752 1.02408e-12
5.21002 6.97523e-12
5.26253 7.78853e-13
5.31503 1.11918e-11
5.36754 5.65964e-13
5.42004 1.12674e-11
5.47255 8.74344e-13
5.52505 7.15309e-12
5.57756 1.24378e-12
5.63006 3.12291e-12
5.68257 2.00179e-12
5.73507 1.7155e-12
5.78758 5.17648e-12
5.84008 1.44873e-12
5.89259 1.04727e-11
5.94509 9.80515e-13
5.9976 1.32871e-11
6.05011 1.0367e-12
6.10261 1.05231e-11
6.15512 1.61969e-12
6.20762 5.43604e-12
6.26013 2.04484e-12
6.31263 2.76069e-12
6.36514 4.05782e-12
6.41764 2.34693e-12
6.47015 9.51988e-12
6.52265 1.77551e-12
6.57516 1.48988e-11
6.62766 1.36587e-12
6.68017 1.43885e-11
6.73267 2.04621e-12
6.78518 8.77909e-12
6.83768 2.65125e-12
6.89019 4.43928e-12
6.94269 3.83279e-12
6.9952 3.58765e-12
7.0477 9.05839e-12
7.10021 3.07623e-12
7.15272 1.69107e-11
7.20522 2.10017e-12
7.25773 1.9449e-11
7.31023 2.64701e-12
7.36274 1.37918e-11
7.41524 3.77176e-12
7.46775 7.27564e-12
7.52025 4.61029e-12
7.57276 5.5526e-12
7.62526 9.73663e-12
7.67777 5.23592e-12
7.73027 2.06861e-11
7.78278 3.60783e-12
7.83528 2.75638e-11
7.88779 3.7903e-12
7.94029 2.21823e-11
7.9928 5.8035e-12
8.0453 1.24267e-11
8.09781 6.86079e-12
8.15032 9.18937e-12
8.20282 1.26298e-11
8.25533 9.28381e-12
8.30783 2.9089e-11
8.36034 6.75789e-12
8.41284 4.35169e-11
8.46535 6.36436e-12
8.51785 3.86317e-11
8.57036 1.01779e-11
8.62286 2.29629e-11
8.67537 1.23658e-11
8.72787 1.71419e-11
8.78038 2.08748e-11
8.83288 1.839e-11
8.88539 5.05383e-11
8.93789 1.41971e-11
8.9904 8.22005e-11
9.0429 1.31592e-11
9.09541 7.8168e-11
9.14791 2.20187e-11
9.20042 4.8996e-11
9.25293 2.79843e-11
9.30543 3.89649e-11
9.35794 4.7031e-11
9.41044 4.47563e-11
9.46295 1.19616e-10
9.51545 3.64475e-11
9.56796 2.06337e-10
9.62046 3.67975e-11
9.67297 2.05715e-10
9.72547 6.65569e-11
9.77798 1.37199e-10
9.83048 8.98898e-11
9.88299 1.26248e-10
9.93549 1.67471e-10
9.988 1.59432e-10
10.0405 4.63766e-10
10.093 1.40012e-10
10.1455 8.52049e-10
10.198 1.78343e-10
10.2505 9.05505e-10
10.303 3.72621e-10
10.3555 6.95408e-10
10.408 5.78908e-10
10.4605 8.70714e-10
10.5131 1.44471e-09
10.5656 1.32825e-09
10.6181 4.94629e-09
10.6706 1.49085e-09
10.7231 1.11293e-08
10.7756 3.31439e-09
10.8281 1.56163e-08
10.8806 1.03866e-08
10.9331 2.09014e-08
10.9856 2.92378e-08
11.0381 6.30583e-08
11.0906 1.94638e-07
11.1431 2.43807e-07
11.1956 2.12456e-06
11.2481 1.60768e-06
11.3006 3.61701e-05
11.3531 0.000174469
11.4056 0.00653019
11.4581 0.360759
11.5107 0.255891
11.5632 0.00297515
11.6157 0.000160042
11.6682 1.98305e-05
11.7207 1.51999e-06
11.7732 1.77356e-06
11.8257 1.37274e-07
11.8782 2.22263e-07
11.9307 4.36567e-08
11.9832 3.01531e-08
12.0357 1.32469e-08
12.0882 9.01264e-09
12.1407 7.41508e-09
12.1932 3.42187e-09
12.2457 6.59611e-09
12.2982 1.0412e-09
12.3507 3.72298e-09
12.4032 7.59129e-10
12.4557 1.2221e-09
12.5083 5.52411e-10
12.5608 4.44394e-10
12.6133 3.48478e-10
12.6658 2.89623e-10
12.7183 4.46781e-10
12.7708 1.30313e-10
12.8233 4.50285e-10
12.8758 8.29032e-11
12.9283 2.35862e-10
12.9808 9.0479e-11
13.0333 8.7328e-11
13.0858 6.33071e-11
13.1383 5.99587e-11
13.1908 7.3019e-11
13.2433 3.72313e-11
13.2958 1.02228e-10
13.3483 1.979e-11
13.4008 7.52741e-11
13.4533 2.43288e-11
13.5059 3.11199e-11
13.5584 2.07908e-11
13.6109 1.88281e-11
13.6634 1.95361e-11
13.7159 1.45084e-11
13.7684 3.17957e-11
13.8209 7.49216e-12
13.8734 3.01651e-11
13.9259 8.6407e-12
13.9784 1.44109e-11
14.0309 8.93216e-12
14.0834 7.70432e-12
14.1359 7.40012e-12
14.1884 6.639e-12
14.2409 1.22975e-11
14.2934 3.63034e-12
14.3459 1.39123e-11
14.3984 3.77746e-12
14.4509 7.51047e-12
14.5035 4.45337e-12
14.556 3.76105e-12
14.6085 3.53586e-12
14.661 3.40029e-12
14.7135 5.69249e-12
14.766 1.98363e-12
14.8185 7.1481e-12
14.871 1.95206e-12
14.9235 4.15405e-12
14.976 2.46565e-12
15.0285 2.05327e-12
15.081 1.94668e-12
15.1335 1.90631e-12
15.186 3.07551e-12
15.2385 1.15238e-12
15.291 4.01374e-12
15.3435 1.1541e-12
15.396 2.36711e-12
15.4485 1.47868e-12
15.5011 1.20677e-12
15.5536 1.17144e-12
15.6061 1.14707e-12
15.6586 1.89498e-12
15.7111 6.93495e-13
15.7636 2.4097e-12
15.8161 7.62257e-13
15.8686 1.35775e-12
15.9211 9.35816e-13
15.9736 7.5522e-13
16.0261 7.5673e-13
16.0786 7.21372e-13
16.1311 1.29914e-12
16.1836 4.30231e-13
16.2361 1.49752e-12
16.2886 5.50679e-13
16.3411 7.68817e-13
16.3936 6.04702e-13
16.4461 5.06282e-13
16.4986 5.32717e-13
16.5512 4.55901e-13
16.6037 9.57243e-13
16.6562 2.83608e-13
16.7087 9.19349e-13
16.7612 4.19572e-13
16.8137 4.31363e-13
16.8662 3.86506e-13
16.9187 3.60703e-13
16.9712 4.2295e-13
17.0237 2.76152e-13
17.0762 7.16325e-13
17.1287 2.12916e-13
17.1812 5.26024e-13
17.2337 3.15318e-13
17.2862 2.57329e-13
17.3387 2.47647e-13
17.3912 2.56519e-13
17.4437 3.75441e-13
17.4962 1.59077e-13
17.5488 5.00517e-13
17.6013 1.84109e-13
17.6538 2.70045e-13
17.7063 2.14496e-13
17.7588 1.80647e-13
17.8113 1.83035e-13
17.8638 1.62482e-13
17.9163 3.34395e-13
17.9688 1.03121e-13
18.0213 2.95347e-13
18.0738 1.57925e-13
18.1263 1.38948e-13
18.1788 1.29929e-13
18.2313 1.36249e-13
18.2838 1.76542e-13
18.3363 8.69657e-14
18.3888 2.55086e-13
18.4413 9.30637e-14
18.4938 1.41284e-13
18.5464 1.12122e-13
18.5989 9.7468e-14
18.6514 9.63842e-14
18.7039 8.7396e-14
18.7564 1.81481e-13
18.8089 5.78138e-14
18.8614 1.52561e-13
18.9139 9.17449e-14
18.9664 7.88935e-14
19.0189 7.50295e-14
19.0714 8.67276e-14
19.1239 1.28472e-13
19.1764 5.47253e-14
19.2289 1.72403e-13
19.2814 8.07074e-14
19.3339 9.52064e-14
19.3864 9.04623e-14
19.4389 1.01197e-13
19.4914 1.20512e-13
19.544 8.57414e-14
19.5965 2.42625e-13
19.649 9.72923e-14
19.7015 1.78823e-13
19.754 1.57493e-13
19.8065 1.62746e-13
19.859 1.75108e-13
19.9115 1.88005e-13
19.964 4.37552e-13
20.0165 1.68785e-13
20.069 4.34353e-13
20.1215 3.37716e-13
20.174 3.38434e-13
20.2265 3.54535e-13
20.279 4.69927e-13
20.3315 9.06764e-13
20.384 3.75397e-13
20.4365 1.14046e-12
20.489 7.86866e-13
20.5416 8.14494e-13
20.5941 8.55084e-13
20.6466 1.22298e-12
20.6991 2.05168e-12
20.7516 9.61757e-13
20.8041 3.06977e-12
20.8566 1.95038e-12
20.9091 2.15048e-12
20.9616 2.27019e-12
21.0141 3.33198e-12
21.0666 5.1493e-12
21.1191 2.69997e-12
21.1716 8.65626e-12
21.2241 5.3165e-12
21.2766 6.20221e-12
21.3291 6.59729e-12
21.3816 9.93085e-12
21.4341 1.4987e-11
21.4866 8.36233e-12
21.5392 2.69209e-11
21.5917 1.68448e-11
21.6442 2.02912e-11
21.6967 2.19281e-11
21.7492 3.45161e-11
21.8017 5.40214e-11
21.8542 3.02866e-11
21.9067 9.94226e-11
21.9592 6.71718e-11
22.0117 8.22785e-11
22.0642 9.15848e-11
22.1167 1.53953e-10
22.1692 2.67871e-10
22.2217 1.45837e-10
22.2742 4.91944e-10
22.3267 3.85709e-10
22.3792 4.93598e-10
22.4317 5.81668e-10
22.4842 1.05485e-09
22.5368 2.23749e-09
22.5893 1.23656e-09
22.6418 4.21884e-09
22.6943 4.29305e-09
22.7468 6.49834e-09
22.7993 8.8791e-09
22.8518 1.78016e-08
22.9043 5.40873e-08
22.9568 4.78761e-08
23.0093 1.43608e-07
23.0618 3.08385e-07
23.1143 1.0273e-06
23.1668 3.82196e-06
23.2193 1.48932e-05
23.2718 0.000108973
23.3243 0.000605357
23.3768 0.00662576
23.4293 0.225417
23.4818 0.257408
23.5344 0.00811378
23.5869 0.000647764
23.6394 0.000119555
23.6919 1.86405e-05
23.7444 4.46748e-06
23.7969 1.0204e-06
23.8494 3.9286e-07
23.9019 1.89524e-07
23.9544 3.53656e-08
24.0069 4.10756e-08
24.0594 1.72654e-08
24.1119 9.99161e-09
24.1644 5.19787e-09
24.2169 3.26625e-09
24.2694 4.41817e-09
24.3219 1.23471e-09
24.3744 1.17034e-09
24.4269 6.91606e-10
24.4794 6.4145e-10
24.532 5.38362e-10
24.5845 1.91486e-10
24.637 3.7147e-10
24.6895 1.64244e-10
24.742 1.25448e-10
24.7945 8.29612e-11
24.847 7.7533e-11
24.8995 1.1022e-10
24.952 3.33752e-11
25.0045 4.45161e-11
25.057 2.88673e-11
25.1095 2.8031e-11
25.162 2.48357e-11
25.2145 1.10102e-11
25.267 2.32434e-11
25.3195 1.0775e-11
25.372 8.83461e-12
25.4245 6.39488e-12
25.477 6.35052e-12
25.5296 9.67054e-12
25.5821 3.18947e-12
25.6346 4.225e-12
25.6871 2.95687e-12
25.7396 3.03676e-12
25.7921 3.03364e-12
25.8446 1.24521e-12
25.8971 2.67505e-12
25.9496 1.43306e-12
26.0021 1.19393e-12
26.0546 9.35547e-13
26.1071 7.90138e-13
26.1596 1.43174e-12
26.2121 5.53732e-13
26.2646 5.62809e-13
26.3171 4.29657e-13
26.3696 4.73046e-13
26.4221 6.01894e-13
26.4746 2.09397e-13
26.5272 3.65325e-13
26.5797 2.46119e-13
26.6322 2.30914e-13
26.6847 2.19191e-13
26.7372 1.11749e-13
26.7897 2.41371e-13
26.8422 1.27832e-13
26.8947 1.05646e-13
26.9472 8.69971e-14
26.9997 7.62277e-14
27.0522 1.41013e-13
27.1047 5.92006e-14
27.1572 5.75449e-14
27.2097 4.6768e-14
27.2622 5.1722e-14
27.3147 7.57359e-14
27.3672 2.8436e-14
27.4197 4.13806e-14
27.4722 3.23624e-14
27.5248 3.45213e-14
27.5773 4.15687e-14
27.6298 1.75697e-14
27.6823 3.61902e-14
27.7348 2.56609e-14
27.7873 2.47718e-14
27.8398 2.6135e-14
27.8923 1.52399e-14
27.9448 3.56142e-14
27.9973 2.24068e-14
28.0498 2.04395e-14
28.1023 2.00983e-14
28.1548 1.65818e-14
28.2073 3.74261e-14
28.2598 2.09582e-14
28.3123 1.9546e-14
28.3648 1.87241e-14
28.4173 1.96037e-14
28.4698 4.0217e-14
28.5224 2.04507e-14
28.5749 2.09159e-14
28.6274 1.98413e-14
28.6799 2.32904e-14
28.7324 4.31891e-14
28.7849 2.05709e-14
28.8374 2.3796e-14
28.8899 2.23052e-14
28.9424 2.71089e-14
28.9949 4.61907e-14
29.0474 2.12819e-14
29.0999 2.7543e-14
29.1524 2.54136e-14
29.2049 3.08784e-14
29.2574 4.94946e-14
29.3099 2.26109e-14
29.3624 3.15787e-14
29.4149 2.87374e-14
29.4674 3.46336e-14
29.52 5.35477e-14
29.5725 2.45992e-14
29.625 3.54407e-14
29.6775 3.20322e-14
29.73 3.8474e-14
29.7825 5.88242e-14
29.835 2.73578e-14
29.8875 3.88268e-14
29.94 3.51608e-14
29.9925 4.24324e-14
30.045 6.57469e-14
30.0975 3.11519e-14
30.15 4.16512e-14
30.2025 3.80659e-14
30.255 4.63571e-14
30.3075 7.4572e-14
30.36 3.64562e-14
30.4125 4.41701e-14
30.465 4.08727e-14
30.5176 4.98118e-14
30.5701 8.51331e-14
30.6226 4.3897e-14
30.6751 4.71987e-14
30.7276 4.4216e-14
30.7801 5.20848e-14
30.8326 9.64067e-14
30.8851 5.39371e-14
30.9376 5.22932e-14
30.9901 4.9839e-14
31.0426 5.25513e-14
31.0951 1.06074e-13
31.1476 6.61675e-14
31.2001 6.15087e-14
31.2526 6.12279e-14
31.3051 5.1719e-14
31.3576 1.10713e-13
31.4101 7.84043e-14
31.4626 7.60964e-14
31.5152 8.33582e-14
31.5677 5.29181e-14
31.6202 1.07764e-13
31.6727 8.67613e-14
31.7252 9.39263e-14
31.7777 1.19815e-13
31.8302 6.31924e-14
31.8827 9.98955e-14
31.9352 8.91285e-14
31.9877 1.07545e-13
32.0402 1.66274e-13
32.0927 8.988e-14
32.1452 9.91293e-14
32.1977 9.35007e-14
32.2502 1.0831e-13
32.3027 2.04581e-13
32.3552 1.30397e-13
32.4077 1.22186e-13
32.4602 1.24764e-13
32.5128 1.01186e-13
32.5653 2.10888e-13
32.6178 1.639e-13
32.6703 1.69562e-13
32.7228 2.10485e-13
32.7753 1.18505e-13
32.8278 1.88817e-13
32.8803 1.7139e-13
32.9328 2.06192e-13
32.9853 3.33482e-13
33.0378 1.95592e-13
33.0903 1.97774e-13
33.1428 1.95285e-13
33.1953 1.9885e-13
33.2478 4.04448e-13
33.3003 2.99118e-13
33.3528 2.94591e-13
33.4053 3.51731e-13
33.4578 2.16011e-13
33.5104 3.71503e-13
33.5629 3.38056e-13
33.6154 4.01433e-13
33.6679 6.51619e-13
33.7204 3.9847e-13
33.7729 4.00871e-13
33.8254 4.11627e-13
33.8779 3.97322e-13
33.9304 8.21782e-13
33.9829 6.55384e-13
34.0354 6.78624e-13
34.0879 9.03024e-13
34.1404 5.41411e-13
34.1929 7.64823e-13
34.2454 7.49968e-13
34.2979 8.95958e-13
34.3504 1.68729e-12
34.4029 1.20694e-12
34.4554 1.16998e-12
34.508 1.39653e-12
34.5605 9.99136e-13
34.613 1.86539e-12
34.6655 1.76726e-12
34.718 2.11342e-12
34.7705 3.64465e-12
34.823 2.49635e-12
34.8755 2.52423e-12
34.928 2.93181e-12
34.9805 2.56387e-12
35.033 5.35808e-12
35.0855 5.05818e-12
35.138 5.9848e-12
35.1905 1.01251e-11
35.243 7.14875e-12
35.2955 7.84882e-12
35.348 9.51108e-12
35.4005 9.44691e-12
35.453 2.09841e-11
35.5056 2.12225e-11
35.5581 2.64832e-11
35.6106 4.84749e-11
35.6631 3.85828e-11
35.7156 4.62821e-11
35.7681 7.62476e-11
35.8206 7.26187e-11
35.8731 1.84082e-10
35.9256 2.36054e-10
35.9781 3.80208e-10
36.0306 9.51936e-10
36.0831 1.44646e-09
36.1356 3.22329e-09
36.1881 6.27685e-09
36.2406 1.80711e-08
36.2931 3.72219e-08
36.3456 1.19586e-07
36.3981 3.6521e-07
36.4506 1.67233e-06
36.5032 5.21492e-06
36.5557 2.34637e-05
36.6082 0.000477722
36.6607 0.00239265
36.7132 0.000581687
36.7657 2.91673e-05
36.8182 4.9319e-06
36.8707 1.2991e-06
36.9232 4.72721e-07
36.9757 1.7081e-07
37.0282 5.73785e-08
37.0807 1.71427e-08
37.1332 5.73088e-09
37.1857 3.16041e-09
37.2382 1.2127e-09
37.2907 7.79946e-10
37.3432 3.83275e-10
37.3957 1.70717e-10
37.4482 1.76072e-10
37.5008 8.8759e-11
37.5533 5.33799e-11
37.6058 5.53903e-11
37.6583 3.11517e-11
37.7108 1.78271e-11
37.7633 1.46887e-11
37.8158 9.04313e-12
37.8683 1.22511e-11
37.9208 8.24997e-12
37.9733 6.42467e-12
38.0258 8.65447e-12
38.0783 5.01609e-12
38.1308 3.56748e-12
38.1833 4.07648e-12
38.2358 2.14247e-12
38.2883 1.79366e-12
38.3408 1.66355e-12
38.3933 1.0878e-12
38.4458 1.54292e-12
38.4983 1.14591e-12
38.5509 9.53414e-13
38.6034 1.44737e-12
38.6559 9.31478e-13
38.7084 7.25623e-13
38.7609 9.63656e-13
38.8134 5.53771e-13
38.8659 4.25529e-13
38.9184 4.79433e-13
38.9709 2.7984e-13
39.0234 3.10722e-13
39.0759 2.74708e-13
39.1284 2.103e-13
39.1809 3.31352e-13
39.2334 2.42094e-13
39.2859 2.05856e-13
39.3384 3.1868e-13
39.3909 2.0838e-13
39.4434 1.65917e-13
39.4959 2.30891e-13
39.5485 1.38748e-13
39.601 1.09488e-13
39.6535 1.33579e-13
39.706 7.96982e-14
39.7585 8.11533e-14
39.811 7.98092e-14
39.8635 5.68512e-14
39.916 8.34276e-14
39.9685 6.60352e-14
40.021 5.56907e-14
40.0735 9.02381e-14
40.126 6.35473e-14
40.1785 5.38883e-14
40.231 8.30686e-14
40.2835 5.45685e-14
40.336 4.41496e-14
40.3885 6.32039e-14
40.441 3.94463e-14
40.4935 3.1952e-14
40.5461 4.16783e-14
40.5986 2.56735e-14
40.6511 2.40168e-14
40.7036 2.67936e-14
40.7561 1.78101e-14
40.8086 2.19763e-14
40.8611 1.99054e-14
40.9136 1.53056e-14
40.9661 2.32215e-14
41.0186 1.79531e-14
41.0711 1.51858e-14
41.1236 2.43722e-14
41.1761 1.73505e-14
41.2286 1.49461e-14
41.2811 2.35697e-14
41.3336 1.60786e-14
41.3861 1.36404e-14
41.4386 2.0759e-14
41.4911 1.37887e-14
41.5437 1.15194e-14
41.5962 1.68715e-14
41.6487 1.10073e-14
41.7012 9.24432e-15
41.7537 1.29432e-14
41.8062 8.37774e-15
41.8587 7.33583e-15
41.9112 9.644e-15
41.9637 6.28805e-15
42.0162 5.9986e-15
42.0687 7.20704e-15
42.1212 4.82883e-15
42.1737 5.18559e-15
42.2262 5.56458e-15
42.2787 3.90132e-15
42.3312 4.73373e-15
42.3837 4.51723e-15
42.4362 3.33998e-15
42.4887 4.47181e-15
42.5413 3.85403e-15
42.5938 2.9916e-15
42.6463 4.27366e-15
42.6988 3.40952e-15
42.7513 2.74692e-15
42.8038 4.06825e-15
42.8563 3.07588e-15
42.9088 2.54179e-15
42.9613 3.82807e-15
43.0138 2.79297e-15
43.0663 2.34556e-15
43.1188 3.55186e-15
43.1713 2.5324e-15
43.2238 2.14768e-15
43.2763 3.25018e-15
43.3288 2.28362e-15
43.3813 1.94751e-15
43.4338 2.93625e-15
43.4863 2.04449e-15
43.5389 1.74803e-15
43.5914 2.62135e-15
43.6439 1.81594e-15
43.6964 1.55271e-15
43.7489 2.31347e-15
43.8014 1.59956e-15
43.8539 1.36444e-15
43.9064 2.01768e-15
43.9589 1.39699e-15
44.0114 1.18561e-15
44.0639 1.7372e-15
44.1164 1.21004e-15
44.1689 1.01861e-15
44.2214 1.47482e-15
44.2739 1.04128e-15
44.3264 8.66433e-16
44.3789 1.23393e-15
44.4314 8.94403e-16
44.4839 7.33087e-16
44.5365 1.01926e-15
44.589 7.7419e-16
44.6415 6.2345e-16
44.694 8.3666e-16
44.7465 6.85734e-16
44.799 5.42368e-16
44.8515 6.92033e-16
44.904 6.32687e-16
44.9565 4.92871e-16
45.009 5.8908e-16
45.0615 6.14711e-16
45.114 4.73746e-16
45.1665 5.26509e-16
45.219 6.24828e-16
45.2715 4.77349e-16
45.324 4.95699e-16
45.3765 6.48038e-16
45.429 4.89104e-16
45.4815 4.8055e-16
45.5341 6.62961e-16
45.5866 4.90267e-16
45.6391 4.61042e-16
45.6916 6.47646e-16
45.7441 4.64529e-16
45.7966 4.20648e-16
45.8491 5.88708e-16
45.9016 4.06755e-16
45.9541 3.55143e-16
46.0066 4.90081e-16
46.0591 3.29429e-16
46.1116 2.77792e-16
46.1641 3.7571e-16
46.2166 2.61377e-16
46.2691 2.15776e-16
46.3216 2.81709e-16
46.3741 2.35901e-16
46.4266 1.96485e-16
46.4791 2.38834e-16
46.5317 2.7152e-16
46.5842 2.28946e-16
46.6367 2.52996e-16
46.6892 3.54843e-16
46.7417 2.91418e-16
46.7942 2.96205e-16
46.8467 4.38356e-16
46.8992 3.38111e-16
46.9517 3.20145e-16
47.0042 4.6442e-16
47.0567 3.33576e-16
47.1092 2.96853e-16
47.1617 4.15481e-16
47.2142 3.04559e-16
47.2667 2.6624e-16
47.3192 3.58045e-16
47.3717 3.58436e-16
47.4242 3.29829e-16
47.4767 4.08484e-16
47.5293 5.9353e-16
47.5818 5.35772e-16
47.6343 5.88733e-16
47.6868 9.26047e-16
47.7393 7.49314e-16
47.7918 7.30494e-16
47.8443 1.08158e-15
47.8968 7.84459e-16
47.9493 6.97896e-16
48.0018 9.69301e-16
48.0543 8.2329e-16
48.1068 7.62985e-16
48.1593 1.00425e-15
48.2118 1.41054e-15
48.2643 1.33346e-15
48.3168 1.53513e-15
48.3693 2.47997e-15
48.4218 2.02989e-15
48.4743 1.98198e-15
48.5269 2.91996e-15
48.5794 2.09146e-15
48.6319 1.83696e-15
48.6844 2.52076e-15
48.7369 2.5144e-15
48.7894 2.43339e-15
48.8419 3.14047e-15
48.8944 5.08754e-15
48.9469 4.5764e-15
48.9994 4.88239e-15
49.0519 7.60239e-15
49.1044 5.56176e-15
49.1569 4.93421e-15
49.2094 6.85214e-15
49.2619 5.88759e-15
49.3144 5.60443e-15
49.3669 7.58109e-15
49.4194 1.22374e-14
49.4719 1.13349e-14
49.5245 1.2483e-14
49.577 1.98126e-14
49.6295 1.44161e-14
49.682 1.27019e-14
49.7345 1.77051e-14
49.787 1.63971e-14
49.8395 1.61166e-14
49.892 2.20454e-14
49.9445 3.80435e-14
49.997 3.38787e-14
50.0495 3.5557e-14
50.102 5.45844e-14
50.1545 3.84994e-14
50.207 3.36345e-14
50.2595 4.80053e-14
50.312 6.35191e-14
50.3645 6.50548e-14
50.417 8.34178e-14
50.4695 1.45522e-13
50.5221 1.13636e-13
50.5746 1.05002e-13
50.6271 1.51478e-13
50.6796 1.36901e-13
50.7321 1.39647e-13
50.7846 2.06341e-13
50.8371 3.83243e-13
50.8896 3.46033e-13
50.9421 3.62826e-13
50.9946 5.57438e-13
51.0471 4.426e-13
51.0996 4.24059e-13
51.1521 6.73681e-13
51.2046 1.34133e-12
51.2571 1.3648e-12
51.3096 1.59338e-12
51.3621 2.5874e-12
51.4146 2.13902e-12
51.4671 2.04789e-12
51.5197 3.96225e-12
51.5722 6.62333e-12
51.6247 9.71797e-12
51.6772 1.61517e-11
51.7297 2.55368e-11
51.7822 2.95288e-11
51.8347 5.85431e-11
51.8872 1.11416e-10
51.9397 2.07189e-10
51.9922 2.47356e-10
52.0447 4.85254e-10
52.0972 8.36264e-10
52.1497 1.17111e-09
52.2022 2.3326e-09
52.2547 7.07166e-09
52.3072 1.55647e-08
52.3597 3.15661e-08
52.4122 5.90416e-08
52.4647 1.3771e-07
52.5173 2.33254e-07
52.5698 6.18692e-07
52.6223 2.34557e-06
52.6748 1.87808e-05
52.7273 0.000131833
52.7798 0.000174169
52.8323 4.17694e-05
52.8848 4.03092e-06
52.9373 8.79503e-07
52.9898 3.18366e-07
53.0423 1.4249e-07
53.0948 6.76062e-08
53.1473 3.01071e-08
53.1998 8.94111e-09
53.2523 9.01836e-09
53.3048 5.95873e-09
53.3573 2.28999e-09
53.4098 1.09799e-09
53.4623 5.17157e-10
53.5149 2.82377e-10
53.5674 1.70805e-10
53.6199 1.13331e-10
53.6724 4.72462e-11
53.7249 3.47467e-11
53.7774 2.25958e-11
53.8299 2.02548e-11
53.8824 8.68301e-12
53.9349 7.30895e-12
53.9874 3.69784e-12
54.0399 1.81935e-12
54.0924 1.29444e-12
54.1449 1.21901e-12
54.1974 1.31652e-12
54.2499 5.93589e-13
54.3024 3.46674e-13
54.3549 3.67426e-13
54.4074 5.35416e-13
54.4599 4.37963e-13
54.5125 1.80708e-13
54.565 1.73775e-13
54.6175 2.38669e-13
54.67 1.2819e-13
54.7225 9.96705e-14
54.775 1.06796e-13
54.8275 6.11737e-14
54.88 4.42914e-14
54.9325 4.82911e-14
54.985 6.51984e-14
55.0375 3.08034e-14
55.09 1.90794e-14
55.1425 2.21623e-14
55.195 3.42477e-14
55.2475 1.8935e-14
55.3 1.15013e-14
55.3525 1.18379e-14
55.405 1.60706e-14
55.4575 1.1125e-14
55.5101 7.9163e-15
55.5626 7.84182e-15
55.6151 7.32357e-15
55.6676 6.02785e-15
55.7201 5.24611e-15
55.7726 5.65869e-15
55.8251 3.58335e-15
55.8776 3.14152e-15
55.9301 3.26588e-15
55.9826 4.01141e-15
56.0351 2.00195e-15
56.0876 1.66851e-15
56.1401 1.96297e-15
56.1926 2.72663e-15
56.2451 1.253e-15
56.2976 9.42526e-16
56.3501 1.17733e-15
56.4026 1.79541e-15
56.4551 8.30268e-16
56.5077 5.71459e-16
56.5602 7.20832e-16
56.6127 1.16577e-15
56.6652 5.59261e-16
56.7177 3.65177e-16
56.7702 4.54531e-16
56.8227 7.58122e-16
56.8752 3.76422e-16
56.9277 2.40067e-16
56.9802 2.94886e-16
57.0327 4.98949e-16
57.0852 2.51885e-16
57.1377 1.59713e-16
57.1902 1.96095e-16
57.2427 3.33802e-16
57.2952 1.67307e-16
57.3477 1.06947e-16
57.4002 1.33461e-16
57.4527 2.26625e-16
57.5053 1.10182e-16
57.5578 7.24922e-17
57.6103 9.3107e-17
57.6628 1.54925e-16
57.7153 7.20308e-17
57.7678 5.05826e-17
57.8203 6.6624e-17
57.8728 1.0518e-16
57.9253 4.72767e-17
57.9778 3.71808e-17
58.0303 4.85444e-17
58.0828 6.96008e-17
58.1353 3.22413e-17
58.1878 2.91486e-17
58.2403 3.52713e-17
58.2928 4.40208e-17
58.3453 2.42321e-17
58.3978 2.39031e-17
58.4503 2.47141e-17
58.5029 2.64076e-17
58.5554 2.08186e-17
58.6079 1.94637e-17
58.6604 1.61421e-17
58.7129 1.56196e-17
58.7654 1.94901e-17
58.8179 1.47898e-17
58.8704 9.85122e-18
58.9229 1.03436e-17
58.9754 1.78932e-17
59.0279 1.00991e-17
59.0804 6.40505e-18
59.1329 8.50892e-18
59.1854 1.46145e-17
59.2379 6.66392e-18
59.2904 5.62235e-18
59.3429 7.60524e-18
59.3954 9.98634e-18
59.4479 5.73121e-18
59.5005 6.02857e-18
59.553 5.93429e-18
59.6055 5.94949e-18
59.658 6.97421e-18
59.7105 5.66993e-18
59.763 3.82892e-18
59.8155 4.31047e-18
59.868 8.0279e-18
59.9205 4.16315e-18
59.973 3.03937e-18
60.0255 4.50697e-18
60.078 6.69747e-18
60.1305 3.5521e-18
60.183 3.89787e-18
60.2355 4.09244e-18
60.288 4.14091e-18
60.3405 5.23449e-18
60.393 4.13508e-18
60.4455 2.71226e-18
60.498 3.44649e-18
60.5506 6.4753e-18
60.6031 3.08658e-18
60.6556 2.84915e-18
60.7081 3.9486e-18
60.7606 4.66171e-18
60.8131 3.93903e-18
60.8656 3.90579e-18
60.9181 2.88928e-18
60.9706 3.18367e-18
61.0231 6.09473e-18
61.0756 3.11032e-18
61.1281 2.5703e-18
61.1806 3.82756e-18
61.2331 4.75908e-18
61.2856 3.72403e-18
61.3381 3.82615e-18
61.3906 2.83849e-18
61.4431 3.15744e-18
61.4956 6.07912e-18
61.5482 2.99937e-18
61.6007 2.7136e-18
61.6532 3.82746e-18
61.7057 4.25667e-18
61.7582 4.29432e-18
61.8107 3.82189e-18
61.8632 2.50084e-18
61.9157 3.34828e-18
61.9682 5.98837e-18
62.0207 2.91937e-18
62.0732 3.3276e-18
62.1257 3.52178e-18
62.1782 3.37311e-18
62.2307 5.59768e-18
62.2832 3.35583e-18
62.3357 2.44771e-18
62.3882 3.83877e-18
62.4407 4.71412e-18
62.4932 3.98597e-18
62.5458 3.87081e-18
62.5983 2.5526e-18
62.6508 3.39514e-18
62.7033 5.9241e-18
62.7558 3.01579e-18
62.8083 3.57353e-18
62.8608 3.2568e-18
62.9133 3.20045e-18
62.9658 6.06944e-18
63.0183 3.01381e-18
63.0708 2.94162e-18
63.1233 3.7758e-18
63.1758 3.58652e-18
63.2283 5.44874e-18
63.2808 3.39522e-18
63.3333 2.51421e-18
63.3858 3.90218e-18
63.4383 4.23671e-18
63.4908 4.68208e-18
63.5434 3.70842e-18
63.5959 2.38786e-18
63.6484 3.81116e-18
63.7009 4.8036e-18
63.7534 4.11229e-18
63.8059 3.85385e-18
63.8584 2.42356e-18
63.9109 3.69112e-18
63.9634 5.14814e-18
64.0159 3.80459e-18
64.0684 3.89659e-18
64.1209 2.48001e-18
64.1734 3.62993e-18
64.2259 5.26747e-18
64.2784 3.72339e-18
64.3309 3.90561e-18
64.3834 2.48728e-18
64.4359 3.65102e-18
64.4884 5.17912e-18
64.541 3.84914e-18
64.5935 3.89481e-18
64.646 2.4451e-18
64.6985 3.75304e-18
64.751 4.87198e-18
64.8035 4.20896e-18
64.856 3.81571e-18
64.9085 2.42333e-18
64.961 3.89792e-18
65.0135 4.33969e-18
65.066 4.83137e-18
65.1185 3.5884e-18
65.171 2.56558e-18
65.2235 3.95812e-18
65.276 3.68973e-18
65.3285 5.61037e-18
65.381 3.21778e-18
65.4335 3.01744e-18
65.486 3.71383e-18
65.5386 3.24679e-18
65.5911 6.12961e-18
65.6436 3.00595e-18
65.6961 3.68649e-18
65.7486 3.0777e-18
65.8011 3.39387e-18
65.8536 5.75046e-18
65.9061 3.58004e-18
65.9586 4.01669e-18
66.0111 2.52439e-18
66.0636 3.95712e-18
66.1161 4.3835e-18
66.1686 5.13668e-18
66.2211 3.5092e-18
66.2736 2.9247e-18
66.3261 3.8986e-18
66.3786 3.31498e-18
66.4311 6.25787e-18
66.4836 3.12353e-18
66.5362 3.97989e-18
66.5887 2.88027e-18
66.6412 3.78015e-18
66.6937 5.11465e-18
66.7462 4.66322e-18
66.7987 3.81865e-18
66.8512 2.84536e-18
66.9037 4.10611e-18
66.9562 3.42563e-18
67.0087 6.40356e-18
67.0612 3.23091e-18
67.1137 4.16308e-18
67.1662 2.86601e-18
67.2187 4.0599e-18
67.2712 4.76104e-18
67.3237 5.43025e-18
67.3762 3.62336e-18
67.4287 3.3992e-18
67.4812 3.84887e-18
67.5338 3.54754e-18
67.5863 6.24387e-18
67.6388 4.06481e-18
67.6913 4.32436e-18
67.7438 2.86472e-18
67.7963 4.4699e-18
67.8488 3.68019e-18
67.9013 6.7689e-18
67.9538 3.48849e-18
68.0063 4.53219e-18
68.0588 2.94233e-18
68.1113 4.5712e-18
68.1638 4.29637e-18
68.2163 6.65895e-18
68.2688 3.52081e-18
68.3213 4.46512e-18
68.3738 3.27472e-18
68.4263 4.53164e-18
68.4788 4.90109e-18
68.5314 6.5084e-18
68.5839 3.72707e-18
68.6364 4.45039e-18
68.6889 3.55022e-18
68.7414 4.59726e-18
68.7939 5.23203e-18
68.8464 6.63849e-18
68.8989 3.88321e-18
68.9514 4.63698e-18
69.0039 3.64963e-18
69.0564 4.84687e-18
69.1089 5.20898e-18
69.1614 7.13609e-18
69.2139 3.96007e-18
69.2664 5.04125e-18
69.3189 3.58116e-18
69.3714 5.2675e-18
69.4239 4.86577e-18
69.4764 7.87156e-18
69.529 4.14236e-18
69.5815 5.51055e-18
69.634 3.54697e-18
69.6865 5.65227e-18
69.739 4.51017e-18
69.7915 8.31677e-18
69.844 4.96194e-18
69.8965 5.60908e-18
69.949 4.06624e-18
70.0015 5.47478e-18
70.054 4.84238e-18
70.1065 7.59337e-18
70.159 7.00041e-18
70.2115 5.02012e-18
70.264 5.49114e-18
70.3165 4.51682e-18
70.369 6.09428e-18
70.4215 5.7779e-18
70.474 9.305e-18
70.5266 5.03386e-18
70.5791 6.56243e-18
70.6316 4.3704e-18
70.6841 6.4559e-18
70.7366 5.409e-18
70.7891 8.70669e-18
70.8416 8.04635e-18
70.8941 5.62766e-18
70.9466 6.56475e-18
70.9991 4.86851e-18
71.0516 7.2615e-18
71.1041 5.95494e-18
71.1566 1.07102e-17
71.2091 6.76951e-18
71.2616 7.03e-18
71.3141 6.07228e-18
71.3666 6.19466e-18
71.4191 7.38157e-18
71.4716 7.39961e-18
71.5242 1.16487e-17
71.5767 6.54331e-18
71.6292 8.15213e-18
71.6817 6.04721e-18
71.7342 7.37231e-18
71.7867 7.71462e-18
71.8392 8.7041e-18
71.8917 1.25671e-17
71.9442 7.02175e-18
71.9967 9.06895e-18
72.0492 6.59405e-18
72.1017 8.14778e-18
72.1542 8.59082e-18
72.2067 9.35052e-18
72.2592 1.40617e-17
72.3117 8.04926e-18
72.3642 9.84713e-18
72.4167 7.84815e-18
72.4692 8.36839e-18
72.5218 1.01656e-17
72.5743 9.27676e-18
72.6268 1.58114e-17
72.6793 1.03047e-17
72.7318 1.00892e-17
72.7843 1.02312e-17
72.8368 8.04242e-18
72.8893 1.21021e-17
72.9418 9.45529e-18
72.9943 1.60841e-17
73.0468 1.50285e-17
73.0993 9.86454e-18
73.1518 1.31787e-17
73.2043 8.80592e-18
73.2568 1.2426e-17
73.3093 1.22084e-17
73.3618 1.335e-17
73.4143 2.05879e-17
73.4668 1.28189e-17
73.5194 1.3501e-17
73.5719 1.36002e-17
73.6244 1.04112e-17
73.6769 1.60176e-17
73.7294 1.27561e-17
73.7819 1.92171e-17
73.8344 2.26082e-17
73.8869 1.33746e-17
73.9394 1.73077e-17
73.9919 1.43294e-17
74.0444 1.34484e-17
74.0969 1.89791e-17
74.1494 1.49227e-17
74.2019 2.44066e-17
74.2544 2.58464e-17
74.3069 1.57806e-17
74.3594 2.09716e-17
74.4119 1.70223e-17
74.4644 1.61316e-17
74.517 2.29119e-17
74.5695 1.80415e-17
74.622 2.81657e-17
74.6745 3.2636e-17
74.727 1.97957e-17
74.7795 2.45226e-17
74.832 2.29304e-17
74.8845 1.80638e-17
74.937 2.77067e-17
74.9895 2.35225e-17
75.042 2.8933e-17
75.0945 4.2692e-17
75.147 2.91709e-17
75.1995 2.64842e-17
75.252 3.27792e-17
75.3045 2.26163e-17
75.357 2.952e-17
75.4095 3.46585e-17
75.462 2.87166e-17
75.5146 4.75052e-17
75.5671 5.03928e-17
75.6196 3.16814e-17
75.6721 3.92889e-17
75.7246 3.90165e-17
75.7771 2.87902e-17
75.8296 4.31462e-17
75.8821 4.2675e-17
75.9346 4.0149e-17
75.9871 6.68582e-17
76.0396 6.31407e-17
76.0921 4.15548e-17
76.1446 5.39432e-17
76.1971 5.18163e-17
76.2496 3.92036e-17
76.3021 5.80942e-17
76.3546 5.90325e-17
76.4071 5.31574e-17
76.4596 8.75678e-17
76.5122 9.22631e-17
76.5647 6.02512e-17
76.6172 7.00889e-17
76.6697 7.89872e-17
76.7222 5.74309e-17
76.7747 7.26414e-17
76.8272 9.00515e-17
76.8797 7.36927e-17
76.9322 1.02634e-16
76.9847 1.43619e-16
77.0372 1.10332e-16
77.0897 8.75326e-17
77.1422 1.19059e-16
77.1947 1.25162e-16
77.2472 1.56915e-16
77.2997 2.58479e-16
77.3522 2.83688e-16
77.4047 2.16909e-16
77.4572 2.12558e-16
77.5098 2.29323e-16
77.5623 1.68991e-16
77.6148 1.44891e-16
77.6673 1.9119e-16
77.7198 1.74409e-16
77.7723 1.39724e-16
77.8248 1.93805e-16
77.8773 2.21691e-16
77.9298 1.86832e-16
77.9823 2.605e-16
78.0348 4.01025e-16
78.0873 4.10633e-16
78.1398 3.77139e-16
78.1923 4.40205e-16
78.2448 4.42981e-16
78.2973 3.26666e-16
78.3498 3.16197e-16
78.4023 4.11551e-16
78.4548 3.97879e-16
78.5074 3.96179e-16
78.5599 6.2868e-16
78.6124 8.64733e-16
78.6649 8.55389e-16
78.7174 8.50842e-16
78.7699 1.02856e-15
78.8224 1.09208e-15
78.8749 9.60977e-16
78.9274 1.00228e-15
78.9799 1.21499e-15
79.0324 1.18602e-15
79.0849 1.06941e-15
79.1374 1.50197e-15
79.1899 2.44691e-15
79.2424 3.25345e-15
79.2949 3.80229e-15
79.3474 4.40964e-15
79.3999 4.81537e-15
79.4524 4.58904e-15
79.505 4.31302e-15
79.5575 4.97116e-15
79.61 6.33375e-15
79.6625 7.31587e-15
79.715 7.77423e-15
79.7675 8.573e-15
79.82 9.987e-15
79.8725 1.14021e-14
79.925 1.25145e-14
79.9775 1.34772e-14
80 1.37844e-14